#------------------------------------------
#
# peak 1
#
description	583629 to 587749 ms, PARAFAC2 model with 1 components- Peak 1
# mass spectrum (m/z - intensity)
50	0.000176198
51	0.0036007
52	0.00223565
53	0.0192639
54	0.00928537
55	0.135379
56	0.0778125
57	0.500641
58	0.0246414
59	0.00138945
60	0.000382019
61	6.216e-009
62	3.668e-005
63	0.000808192
64	0.000610947
65	0.00451254
66	0.00147746
67	0.0118661
68	0.00713219
69	0.0493899
70	0.299941
71	0.749275
72	0.0418357
73	0.00156528
74	5.79985e-005
75	0.000167305
76	4.05013e-005
77	0.00450987
78	0.00104943
79	0.00461622
80	0.000511294
81	0.00299953
82	0.0158044
83	0.0465284
84	0.0588819
85	0.0945798
86	0.0120653
87	0.00108557
88	9.66008e-006
89	8.14022e-006
90	0.000122567
91	0.00688202
92	0.00030712
93	0.00238393
94	0.00166377
95	0.00197033
96	0.00141205
97	0.0117612
98	0.0221226
99	0.0236906
100	0.00173342
101	0.000127358
102	2.72528e-007
103	5.044e-005
104	1.15998e-006
105	0.00310331
106	0.000313097
107	0.0010093
108	0.00101131
109	0.000479795
110	0.000811854
111	0.0029144
112	0.201981
113	0.0993317
114	0.00781706
115	0.000710188
116	0.000122815
117	0.00108343
118	8.24533e-006
119	0.00265752
120	2.68172e-005
121	0.000196419
122	0.000140559
123	7.44417e-005
124	0.000147587
125	0.000648765
126	0.0172825
127	0.0114581
128	0.00105816
129	0.000675294
130	2.11382e-007
131	1.59386e-009
132	2.44819e-007
133	3.14236e-006
134	0.00111589
135	9.03836e-005
136	2.93469e-005
138	8.55061e-005
139	1.22608e-005
140	0.00608704
141	0.0122075
142	0.00116891
147	2.05292e-005
149	6.35711e-007
150	4.73134e-008
154	0.00040325
155	0.00034329
156	0.02112
157	0.00238594
158	0.000206514
165	2.2163e-005
168	0.00024083
170	0.000126674
177	1.03497e-007
181	7.80423e-007
191	7.61842e-007
193	7.02533e-007
207	0.000894042
208	3.00481e-006
209	9.45132e-007
220	1.05105e-006
223	9.83118e-007
224	3.32607e-008
248	6.93705e-008
250	1.10808e-007
263	1.07044e-007
265	9.93246e-008
276	4.6619e-008
281	0.000118479
282	2.97538e-006
283	7.49503e-009
285	1.58758e-007
299	3.67428e-008
343	2.0228e-008
404	8.23598e-008
414	7.5877e-007
446	1.79705e-007
489	2.68884e-007
549	2.9085e-008
# elution profile (minutes converted to milliseconds - intensity)
583629	230.705
583973	343.99
584316	533.057
584659	786.898
585003	1023.56
585346	1181.19
585689	1194.52
586033	1024.11
586376	783.453
586719	523.266
587063	328.783
587406	210.528
587749	166.845
